Folder: pypi-mirror-383/packages/pysolarcell/pysolarcell-1.3.1-py3-none-any.whl/pysolarcell/spectra

Note: README.md
# PyPI code 383

This repository is part of a project to make all code in PyPI as accessible as possible. For more information 
on the project and to find out how to utilise this data, see the website: https://py-code.org/

This repo contains 43111 packages uploaded to PyPI between 
2025-10-09 22:56 and 2025-10-13 22:42.

The repo is 72% (31286/43111) complete.

Package contents can be found [in the code branch](https://github.com/pypi-data/pypi-mirror-383/tree/code/packages).

A browsable package list for all repositories [all packages here](https://py-code.org/repositories/pypi-mirror-383).

File: LED1.txt
https://doi.org/10.1371/journal.pone.0254482
Wavelength (nm)	Absolute spectral value (W/m2/nm)
380	0.00E+00
382	7.28E-04
384	0.00E+00
386	0.00E+00
388	0.00E+00
390	0.00E+00
392	0.00E+00
394	0.00E+00
396	0.00E+00
398	7.48E-04
400	0.00E+00
402	7.06E-04
404	9.51E-05
406	1.14E-03
408	1.60E-03
410	2.77E-03
412	4.17E-03
414	6.03E-03
416	9.42E-03
418	1.24E-02
420	1.90E-02
422	2.77E-02
424	3.91E-02
426	5.35E-02
428	7.30E-02
430	9.96E-02
432	1.35E-01
434	1.77E-01
436	2.31E-01
438	3.00E-01
440	3.86E-01
442	4.90E-01
444	6.07E-01
446	7.28E-01
448	8.29E-01
450	9.07E-01
452	9.40E-01
454	9.24E-01
456	8.65E-01
458	7.68E-01
460	6.63E-01
462	5.59E-01
464	4.68E-01
466	3.94E-01
468	3.31E-01
470	2.76E-01
472	2.31E-01
474	1.89E-01
476	1.55E-01
478	1.27E-01
480	1.05E-01
482	8.74E-02
484	7.30E-02
486	6.38E-02
488	5.58E-02
490	4.90E-02
492	4.39E-02
494	4.04E-02
496	3.88E-02
498	3.87E-02
500	3.90E-02
502	4.16E-02
504	4.31E-02
506	4.61E-02
508	4.98E-02
510	5.32E-02
512	5.70E-02
514	5.94E-02
516	6.29E-02
518	6.70E-02
520	7.10E-02
522	7.43E-02
524	7.61E-02
526	7.85E-02
528	8.14E-02
530	8.44E-02
532	8.66E-02
534	8.79E-02
536	9.04E-02
538	9.20E-02
540	9.45E-02
542	9.62E-02
544	9.85E-02
546	1.01E-01
548	1.03E-01
550	1.06E-01
552	1.09E-01
554	1.11E-01
556	1.14E-01
558	1.16E-01
560	1.18E-01
562	1.22E-01
564	1.25E-01
566	1.28E-01
568	1.31E-01
570	1.35E-01
572	1.38E-01
574	1.41E-01
576	1.43E-01
578	1.46E-01
580	1.49E-01
582	1.51E-01
584	1.53E-01
586	1.54E-01
588	1.57E-01
590	1.58E-01
592	1.60E-01
594	1.60E-01
596	1.60E-01
598	1.60E-01
600	1.60E-01
602	1.60E-01
604	1.59E-01
606	1.59E-01
608	1.58E-01
610	1.58E-01
612	1.57E-01
614	1.57E-01
616	1.56E-01
618	1.57E-01
620	1.59E-01
622	1.60E-01
624	1.63E-01
626	1.68E-01
628	1.75E-01
630	1.85E-01
632	1.98E-01
634	2.15E-01
636	2.36E-01
638	2.62E-01
640	2.96E-01
642	3.35E-01
644	3.83E-01
646	4.36E-01
648	4.96E-01
650	5.63E-01
652	6.38E-01
654	7.08E-01
656	7.60E-01
658	7.79E-01
660	7.57E-01
662	6.94E-01
664	5.97E-01
666	4.84E-01
668	3.73E-01
670	2.79E-01
672	2.04E-01
674	1.53E-01
676	1.17E-01
678	9.12E-02
680	7.26E-02
682	5.82E-02
684	4.90E-02
686	4.19E-02
688	3.60E-02
690	3.29E-02
692	2.90E-02
694	2.59E-02
696	2.39E-02
698	2.06E-02
700	1.94E-02
702	1.91E-02
704	1.64E-02
706	1.60E-02
708	1.43E-02
710	1.42E-02
712	1.22E-02
714	1.14E-02
716	1.18E-02
718	9.75E-03
720	1.03E-02
722	8.21E-03
724	8.52E-03
726	8.87E-03
728	8.54E-03
730	6.69E-03
732	7.39E-03
734	6.23E-03
736	5.42E-03
738	6.20E-03
740	5.68E-03
742	4.82E-03
744	4.59E-03
746	5.14E-03
748	4.13E-03
750	4.22E-03
752	3.21E-03
754	3.19E-03
756	3.48E-03
758	3.81E-03
760	2.56E-03